Folder: Graph-Fitting/2-Dimension Graph

Note: README.md
# Graph-Fitting
Graph Fitting using Python

Sometimes, I have difficult from plotting data beccause my origin license had expired.

So, as alternative, I decide to use Python when I plot the data.

## 2-Dimension Data
<p align="center">
  <img width="724" height="393" alt="2chart" src="https://github.com/user-attachments/assets/f440ae28-c464-4c93-b91c-c8943eab0a79" /><br>
  <strong>Plotbar</strong>
</p>

<!-- Case1 -->
<p align="center">
  <img width="1456" height="802" alt="image" src="https://github.com/user-attachments/assets/0036c2b8-1393-48d9-b672-f51f1c21358e" /><br>
  <strong>Case1</strong>
</p>

## 3-Dimension Data 
<p align="center">
  <img width="496" height="418" alt="3D image" src="https://github.com/user-attachments/assets/fd21e029-004a-47e8-adfe-56e0abebdb9a" /><br>
  <strong>3-Dimension Data</strong>
</p>

<p align="center">
  <img width="974" height="849" alt="image" src="https://github.com/user-attachments/assets/ff6c45b0-29e0-44a6-8fc6-d6e431c16ac4" /><br>
  <strong>Efficiency Practice </strong>
</p>

File: XRD.csv
2theta,intensity
5,325
5.3,325
5.6,307.5
5.9,282.5
6.2,262.5
6.5,262.5
6.8,250
7.1,232.5
7.4,295
7.7,255
8,227.5
8.3,227.5
8.6,227.5
8.9,235
9.2,232.5
9.5,247.5
9.8,245
10.1,207.5
10.4,220
10.7,197.5
11,160
11.3,157.5
11.6,150
11.9,165
12.2,150
12.5,147.5
12.8,180
13.1,160
13.4,170
13.7,137.5
14,180
14.3,175
14.6,175
14.9,180
15.2,145
15.5,150
15.8,145
16.1,127.5
16.4,155
16.7,165
17,175
17.3,140
17.6,155
17.9,165
18.2,280
18.5,3670
18.8,3995
19.1,352.5
19.4,262.5
19.7,197.5
20,177.5
20.3,160
20.6,142.5
20.9,147.5
21.2,142.5
21.5,165
21.8,110
22.1,120
22.4,147.5
22.7,127.5
23,102.5
23.3,132.5
23.6,152.5
23.9,135
24.2,125
24.5,115
24.8,130
25.1,102.5
25.4,105
25.7,97.5
26,125
26.3,147.5
26.6,97.5
26.9,87.5
27.2,100
27.5,87.5
27.8,87.5
28.1,95
28.4,92.5
28.7,52.5
29,55
29.3,95
29.6,105
29.9,85
30.2,107.5
30.5,167.5
30.8,90
31.1,62.5
31.4,80
31.7,77.5
32,152.5
32.3,162.5
32.6,67.5
32.9,52.5
33.2,65
33.5,85
33.8,92.5
34.1,157.5
34.4,77.5
34.7,80
35,102.5
35.3,127.5
35.6,112.5
35.9,195
36.2,247.5
36.5,2452.5
36.8,1290
37.1,122.5
37.4,137.5
37.7,200
38,482.5
38.3,1450
38.6,100
38.9,112.5
39.2,62.5
39.5,77.5
39.8,105
40.1,90
40.4,95
40.7,90
41,85
41.3,92.5
41.6,80
41.9,85
42.2,65
42.5,132.5
42.8,92.5
43.1,150
43.4,150
43.7,222.5
44,487.5
44.3,6630
44.6,1947.5
44.9,225
45.2,140
45.5,105
45.8,75
46.1,85
46.4,67.5
46.7,72.5
47,52.5
47.3,75
47.6,72.5
47.9,67.5
48.2,127.5
48.5,1075
48.8,270
49.1,85
49.4,67.5
49.7,57.5
50,57.5
50.3,55
50.6,57.5
50.9,40
51.2,75
51.5,57.5
51.8,62.5
52.1,27.5
52.4,60
52.7,52.5
53,47.5
53.3,50
53.6,52.5
53.9,60
54.2,60
54.5,52.5
54.8,35
55.1,72.5
55.4,62.5
55.7,55
56,52.5
56.3,57.5
56.6,47.5
56.9,67.5
57.2,72.5
57.5,47.5
57.8,77.5
58.1,170
58.4,672.5
58.7,817.5
59,120
59.3,57.5
59.6,70
59.9,50
60.2,52.5
60.5,62.5
60.8,72.5
61.1,50
61.4,67.5
61.7,75
62,65
62.3,77.5
62.6,90
62.9,87.5
63.2,117.5
63.5,122.5
63.8,127.5
64.1,720
64.4,1310
64.7,1182.5
65,1300
65.3,240
65.6,82.5
65.9,72.5
66.2,55
66.5,50
66.8,77.5
67.1,60
67.4,72.5
67.7,120
68,670
68.3,715
68.6,100
68.9,40
69.2,47.5
69.5,50
69.8,27.5
70.1,12.5
70.4,27.5
70.7,22.5
71,32.5
71.3,27.5
71.6,45
71.9,27.5
72.2,15
72.5,25
72.8,47.5
73.1,30
73.4,32.5
73.7,55
74,35
74.3,37.5
74.6,45
74.9,35
75.2,42.5
75.5,45
75.8,42.5
76.1,37.5
76.4,75
76.7,187.5
77,355
77.3,197.5
77.6,317.5
77.9,265
78.2,187.5
78.5,105
78.8,40
79.1,50
79.4,37.5
79.7,42.5
80,42.5
80.3,40
80.6,42.5
80.9,205
81.2,152.5
81.5,102.5
81.8,362.5
82.1,442.5
82.4,92.5
82.7,55
83,55
83.3,62.5
83.6,45
83.9,77.5
84.2,252.5
84.5,185
84.8,80
85.1,105
85.4,72.5
85.7,30
86,35
86.3,30
86.6,42.5
86.9,25
87.2,50
87.5,27.5
87.8,35
88.1,37.5
88.4,35
88.7,25
89,27.5
89.3,22.5
89.6,32.5
89.9,32.5
90,47.5